W. E. Hick (1952) devised a CRT experiment which presented a series of nine tests in which there are n equally possible choices. The experiment measured the subject's reaction time based on number of possible choices during any given trial. Hick showed that the individual's reaction time increased by a constant amount as a function of available choices, or the "uncertainty" involved in which reaction stimulus would appear next. Uncertainty is measured in "bits", which are defined as the quantity of information that reduces uncertainty by half in information theory. In Hick's experiment, the reaction time is found to be a function of the binary logarithm of the number of available choices (n). This phenomenon is called "Hick's law" and is said to be a measure of the "rate of gain of information". The law is usually expressed by the formula



R
T
=
a
+
b

log

2


⁡
(
n
+
1
)


{\displaystyle RT=a+b\log _{2}(n+1)}
, where



a


{\displaystyle a}
and



b


{\displaystyle b}
are constants representing the intercept and slope of the function, and



n


{\displaystyle n}
is the number of alternatives. The Jensen Box is a more recent application of Hick's law. Hick's law has interesting modern applications in marketing, where restaurant menus and web interfaces (among other things) take advantage of its principles in striving to achieve speed and ease of use for the consumer.